{
    "resourceType": "Bundle",
    "type": "transaction",
    "entry": [
        {
            "resource": {
                "resourceType": "Composition",
                "id": "459d1361-e647-4a5d-b3c3-02c2c5c1ae97",
                "identifier": {
                    "system": "http://co.fhir.guide/NamingSystem/Encounters",
                    "value": "ADT-4234889-98"
                },
                "status": "final",
                "type": {
                    "coding": [
                        {
                            "system": "http://loinc.org",
                            "code": "18842-5",
                            "display": "Discharge summary"
                        }
                    ],
                    "text": "Healthcare Encounter Digital Report"
                },
                "category": [
                    {
                        "coding": [
                            {
                                "system": "http://loinc.org",
                                "code": "11503-0",
                                "display": "Medical records"
                            }
                        ],
                        "text": "Medical Records"
                    }
                ],
                "subject": {
                    "reference": "Patient/92a8e277-af20-4854-a3fb-02cbe9fb8d49"
                },
                "encounter": {
                    "reference": "Encounter/47b7e0b5-25cc-43d3-a3a8-ee34ff1687fe"
                },
                "date": "2024-02-19T09:59:00-05:00",
                "author": [
                    {
                        "reference": "Practitioner/feb1e63b-d4ed-4b53-9d1f-8d9efa339b0a"
                    }
                ],
                "title": "Reporte Digial de Encuentro de Atención",
                "confidentiality": "N",
                "attester": [
                    {
                        "mode": "professional",
                        "time": "2024-02-19T09:59:00-05:00",
                        "party": {
                            "reference": "Practitioner/feb1e63b-d4ed-4b53-9d1f-8d9efa339b0a"
                        }
                    },
                    {
                        "mode": "legal",
                        "time": "2024-02-19T09:59:00-05:00",
                        "party": {
                            "reference": "Organization/3565ccc1-95b4-47ef-8cc9-5652dba007e6"
                        }
                    }
                ],
                "custodian": {
                    "reference": "Organization/3565ccc1-95b4-47ef-8cc9-5652dba007e6"
                },
                "section": [
                    {
                        "title": "Diagnóstico de problemas de salud activos",
                        "code": {
                            "coding": [
                                {
                                    "system": "http://loinc.org",
                                    "code": "11450-4",
                                    "display": "Problem list Reported"
                                }
                            ]
                        },
                        "entry": [
                            {
                                "reference": "Condition/072d9e24-f388-4a3f-ab82-e8b7a81e4459"
                            }
                        ]
                    },
                    {
                        "title": "Alergias",
                        "code": {
                            "coding": [
                                {
                                    "system": "http://loinc.org",
                                    "code": "48765-2",
                                    "display": "Allergies"
                                }
                            ]
                        },
                        "entry": [
                            {
                                "reference": "AllergyIntolerance/e32678f9-b295-4d79-b9b3-8bab463eca3b"
                            }
                        ]
                    },
                    {
                        "title": "Medicamentos",
                        "code": {
                            "coding": [
                                {
                                    "system": "http://loinc.org",
                                    "code": "10160-0",
                                    "display": "History of Medication use Narrative"
                                }
                            ]
                        },
                        "entry": [
                            {
                                "reference": "MedicationRequest/988056f3-efb2-4ced-be65-6e1131e435c8"
                            }
                        ]
                    },
                    {
                        "title": "Resultados diagnósticos",
                        "code": {
                            "coding": [
                                {
                                    "system": "http://loinc.org",
                                    "code": "30954-2",
                                    "display": "Relevant diagnostic tests/laboratory data Narrative"
                                }
                            ]
                        },
                        "entry": [
                            {
                                "reference": "Observation/29bd72af-4d24-4524-b03a-113a7a81cbb3"
                            },
                            {
                                "reference": "DiagnosticReport/bb82bff9-ad8f-4295-9465-b8d4ab0097fe"
                            }
                        ]
                    },
                    {
                        "title": "Antecedentes familiares",
                        "code": {
                            "coding": [
                                {
                                    "system": "http://loinc.org",
                                    "code": "10157-6",
                                    "display": "History of family member diseases Narrative"
                                }
                            ]
                        },
                        "entry": [
                            {
                                "reference": "FamilyMemberHistory/764efee4-9fbb-4937-a711-94182c542996"
                            },
                            {
                                "reference": "FamilyMemberHistory/bb936d58-aded-4bb0-b9dc-aedeeeb0c756"
                            }
                        ]
                    },
                    {
                        "title": "Documentos adjuntos",
                        "code": {
                            "coding": [
                                {
                                    "system": "http://loinc.org",
                                    "code": "55107-7",
                                    "display": "Addendum Document"
                                }
                            ]
                        },
                        "entry": [
                            {
                                "reference": "DocumentReference/d2458dda-1c4b-49cb-b808-f294eb381895"
                            }
                        ]
                    }
                ]
            },
            "request": {
                "method": "PUT",
                "url": "Composition/459d1361-e647-4a5d-b3c3-02c2c5c1ae97"
            }
        },
        {
            "resource": {
                "resourceType": "Patient",
                "id": "92a8e277-af20-4854-a3fb-02cbe9fb8d49",
                "meta": {
                    "profile": [
                        "http://co.fhir.guide/core/StructureDefinition/PatientCO"
                    ]
                },
                "extension": [
                    {
                        "url": "http://co.fhir.guide/core/StructureDefinition/ExtensionPatientNationality",
                        "valueCoding": {
                            "system": "http://co.fhir.guide/terminology/CodeSystem/ISO31661",
                            "code": "170",
                            "display": "Colombia"
                        }
                    },
                    {
                        "url": "http://co.fhir.guide/core/StructureDefinition/ExtensionPatientEthnicity",
                        "valueCoding": {
                            "system": "http://co.fhir.guide/terminology/CodeSystem/ColombianEthnicGroup",
                            "code": "05",
                            "display": "Negro(a)"
                        }
                    },
                    {
                        "url": "http://co.fhir.guide/core/StructureDefinition/ExtensionPatientPopulationGroup",
                        "valueCoding": {
                            "system": "http://co.fhir.guide/terminology/CodeSystem/ColombianPopulationGroup",
                            "code": "GP_MAD_COM",
                            "display": "Grupo Poblacional - Madres Comunitarias"
                        }
                    },
                    {
                        "url": "http://co.fhir.guide/core/StructureDefinition/ExtensionPatientDisability",
                        "valueCoding": {
                            "system": "http://co.fhir.guide/terminology/CodeSystem/ColombianDisabilityClassification",
                            "code": "08",
                            "display": "Sin discapacidad"
                        }
                    },
                    {
                        "url": "http://co.fhir.guide/core/StructureDefinition/ExtensionPatientGenderIdentity",
                        "valueCoding": {
                            "system": "http://co.fhir.guide/terminology/CodeSystem/ColombianGenderIdentity",
                            "code": "02",
                            "display": "Femenino"
                        }
                    }
                ],
                "identifier": [
                    {
                        "type": {
                            "coding": [
                                {
                                    "system": "http://terminology.hl7.org/CodeSystem/v2-0203",
                                    "code": "PN",
                                    "display": "Person number"
                                },
                                {
                                    "system": "http://co.fhir.guide/terminology/CodeSystem/ColombianPersonIdentifiers",
                                    "code": "CC",
                                    "display": "Cédula ciudadanía"
                                }
                            ]
                        },
                        "period": {
                            "start": "2013-04-05"
                        },
                        "id": "NationalPersonIdentifier-0",
                        "use": "official",
                        "value": "324283476"
                    },
                    {
                        "assigner": {
                            "reference": "Organization/3565ccc1-95b4-47ef-8cc9-5652dba007e6",
                            "display": "Hospital General Central"
                        },
                        "id": "PatientMedicalRecordNumber-0",
                        "use": "usual",
                        "type": {
                            "coding": [
                                {
                                    "code": "MR",
                                    "system": "http://terminology.hl7.org/CodeSystem/v2-0203",
                                    "display": "Medical record number"
                                }
                            ]
                        },
                        "value": "HC-324283476"
                    },
                    {
                        "type": {
                            "coding": [
                                {
                                    "system": "http://terminology.hl7.org/CodeSystem/v2-0203",
                                    "code": "EI",
                                    "display": "Employee number"
                                }
                            ]
                        },
                        "assigner": {
                            "type": "Organization",
                            "display": "CO",
                            "reference": "Organization/3565ccc1-95b4-47ef-8cc9-5652dba007e6"
                        },
                        "id": "EmployeeIdentifier-0",
                        "use": "usual",
                        "system": "http://co.fhir.guide/NamingSystem/employee-identifier",
                        "value": "324283476"
                    }
                ],
                "name": [
                    {
                        "given": [
                            "Mónica",
                            "María"
                        ],
                        "use": "official",
                        "family": "Mora Jaramillo",
                        "_family": {
                            "extension": [
                                {
                                    "url": "http://co.fhir.guide/core/StructureDefinition/ExtensionFathersFamilyName",
                                    "valueString": "Mora"
                                },
                                {
                                    "url": "http://co.fhir.guide/core/StructureDefinition/ExtensionMothersFamilyName",
                                    "valueString": "Jaramillo"
                                }
                            ]
                        }
                    },
                    {
                        "use": "usual",
                        "text": "Mónica Mora"
                    }
                ],
                "telecom": [
                    {
                        "id": "TelecomPhone-0",
                        "system": "phone",
                        "value": "+57(604)111-1111"
                    },
                    {
                        "id": "TelecomEmail-0",
                        "system": "email",
                        "value": "monica.mora@example.com"
                    }
                ],
                "address": [
                    {
                        "id": "HomeAddress-0",
                        "use": "home",
                        "type": "physical",
                        "text": "Cl. 6 Sur #15 43a, El Poblado",
                        "city": "Medellín",
                        "_city": {
                            "extension": [
                                {
                                    "url": "http://co.fhir.guide/core/StructureDefinition/ExtensionDivipolaMunicipality",
                                    "valueCoding": {
                                        "code": "05001",
                                        "system": "http://co.fhir.guide/terminology/CodeSystem/DIVIPOLA"
                                    }
                                }
                            ]
                        },
                        "district": "comuna 14",
                        "state": "Antioqia",
                        "_state": {
                            "extension": [
                                {
                                    "url": "http://co.fhir.guide/core/StructureDefinition/ExtensionDivipolaDepartment",
                                    "valueCoding": {
                                        "code": "05",
                                        "system": "http://co.fhir.guide/terminology/CodeSystem/DIVIPOLA"
                                    }
                                }
                            ]
                        },
                        "postalCode": "050022",
                        "country": "CO"
                    }
                ],
                "maritalStatus": {
                    "coding": [
                        {
                            "code": "M",
                            "system": "http://terminology.hl7.org/CodeSystem/v3-MaritalStatus",
                            "display": "Married"
                        }
                    ],
                    "text": "Casado(a)"
                },
                "active": true,
                "gender": "female",
                "birthDate": "1995-04-05",
                "deceasedBoolean": false
            },
            "request": {
                "method": "PUT",
                "url": "Patient/92a8e277-af20-4854-a3fb-02cbe9fb8d49"
            }
        },
        {
            "resource": {
                "resourceType": "Encounter",
                "id": "47b7e0b5-25cc-43d3-a3a8-ee34ff1687fe",
                "meta": {
                    "profile": [
                        "http://co.fhir.guide/core/StructureDefinition/EncounterConsultationCO"
                    ]
                },
                "identifier": [
                    {
                        "id": "InvoiceIdentifier",
                        "use": "official",
                        "system": "http://co.fhir.guide/NamingSystem/Invoices",
                        "value": "21a87645-0653-4ea1-8e11"
                    },
                    {
                        "id": "EncounterIdentifier",
                        "use": "usual",
                        "system": "http://co.fhir.guide/NamingSystem/Encounters",
                        "value": "ADT-4234889-98"
                    },
                    {
                        "id": "AutorizationIdentifier",
                        "use": "official",
                        "system": "http://co.fhir.guide/NamingSystem/EncounterAutorization",
                        "value": "AUT-42348768-BF-48"
                    }
                ],
                "class": {
                    "system": "http://terminology.hl7.org/CodeSystem/v3-ActCode",
                    "code": "AMB",
                    "display": "ambulatory"
                },
                "type": [
                    {
                        "coding": [
                            {
                                "system": "http://co.fhir.guide/terminology/CodeSystem/ColombianEncounterPurpose",
                                "code": "10",
                                "display": "No aplica"
                            }
                        ]
                    }
                ],
                "serviceType": {
                    "coding": [
                        {
                            "system": "http://co.fhir.guide/terminology/CodeSystem/CUPS",
                            "code": "890201",
                            "display": "CONSULTA DE PRIMERA VEZ POR MEDICINA GENERAL"
                        }
                    ]
                },
                "period": {
                    "start": "2022-03-20T07:30:00-05:00",
                    "end": "2022-03-20T08:15:00-05:00"
                },
                "priority": {
                    "coding": [
                        {
                            "system": "http://terminology.hl7.org/CodeSystem/v3-ActPriority",
                            "code": "UR",
                            "display": "urgent"
                        }
                    ]
                },
                "reasonCode": [
                    {
                        "coding": [
                            {
                                "system": "http://co.fhir.guide/terminology/CodeSystem/ColombianEncounterReasonCode",
                                "code": "13",
                                "display": "Enfermedad general"
                            }
                        ]
                    }
                ],
                "diagnosis": [
                    {
                        "use": {
                            "coding": [
                                {
                                    "system": "http://co.fhir.guide/terminology/CodeSystem/ColombianDiagnosisRole",
                                    "code": "8319008",
                                    "display": "diagnóstico primario"
                                }
                            ]
                        },
                        "id": "MainDiagnosis",
                        "rank": 1,
                        "condition": {
                            "reference": "Condition/072d9e24-f388-4a3f-ab82-e8b7a81e4459"
                        }
                    }
                ],
                "location": [
                    {
                        "location": {
                            "reference": "Location/29c2e207-7c1e-4581-8394-c126875aa896"
                        }
                    }
                ],
                "status": "finished",
                "statusHistory": [
                    {
                        "status": "arrived",
                        "period": {
                            "start": "2022-03-20T07:15:00-05:00",
                            "end": "2022-03-20T07:29:59-05:00"
                        }
                    },
                    {
                        "status": "in-progress",
                        "period": {
                            "start": "2022-03-20T07:30:00-05:00",
                            "end": "2022-03-20T08:14:59-05:00"
                        }
                    },
                    {
                        "status": "finished",
                        "period": {
                            "start": "2022-03-20T08:15:00-05:00",
                            "end": "2022-03-20T08:15:00-05:00"
                        }
                    }
                ],
                "subject": {
                    "reference": "Patient/92a8e277-af20-4854-a3fb-02cbe9fb8d49"
                },
                "serviceProvider": {
                    "reference": "Organization/3565ccc1-95b4-47ef-8cc9-5652dba007e6"
                },
                "participant": [
                    {
                        "type": [
                            {
                                "coding": [
                                    {
                                        "system": "http://terminology.hl7.org/CodeSystem/v3-ParticipationType",
                                        "code": "ATND",
                                        "display": "attender"
                                    }
                                ]
                            }
                        ],
                        "individual": {
                            "reference": "Practitioner/afe390fb-22e4-4c63-af5d-2cf7ec81e2e0"
                        }
                    }
                ]
            },
            "request": {
                "method": "PUT",
                "url": "Encounter/47b7e0b5-25cc-43d3-a3a8-ee34ff1687fe"
            }
        },
        {
            "resource": {
                "resourceType": "Condition",
                "id": "072d9e24-f388-4a3f-ab82-e8b7a81e4459",
                "meta": {
                    "profile": [
                        "http://co.fhir.guide/core/StructureDefinition/ConditionCO"
                    ]
                },
                "clinicalStatus": {
                    "coding": [
                        {
                            "system": "http://terminology.hl7.org/CodeSystem/condition-clinical",
                            "code": "resolved",
                            "display": "Resolved"
                        }
                    ]
                },
                "verificationStatus": {
                    "coding": [
                        {
                            "system": "http://terminology.hl7.org/CodeSystem/condition-ver-status",
                            "code": "confirmed",
                            "display": "Confirmed"
                        }
                    ]
                },
                "category": [
                    {
                        "coding": [
                            {
                                "system": "http://terminology.hl7.org/CodeSystem/condition-category",
                                "code": "encounter-diagnosis",
                                "display": "Encounter Diagnosis"
                            }
                        ]
                    }
                ],
                "severity": {
                    "coding": [
                        {
                            "code": "6736007",
                            "display": "Moderate"
                        }
                    ]
                },
                "code": {
                    "coding": [
                        {
                            "system": "http://hl7.org/fhir/sid/icd-10",
                            "code": "A05.9",
                            "display": "Intoxicación alimentaria bacteriana"
                        }
                    ]
                },
                "note": [
                    {
                        "text": "Nulla Lorem est Lorem commodo duis laboris est exercitation duis exercitation esse. Incididunt nostrud eu proident amet labore laborum magna sit enim. Eiusmod ut anim adipisicing sunt mollit. Elit ex anim laborum sint veniam ex. Non ea qui anim occaecat magna pariatur non irure enim deserunt culpa esse in et."
                    },
                    {
                        "text": "Cupidatat occaecat aute Lorem exercitation commodo."
                    }
                ],
                "subject": {
                    "reference": "Patient/92a8e277-af20-4854-a3fb-02cbe9fb8d49"
                },
                "encounter": {
                    "reference": "Encounter/47b7e0b5-25cc-43d3-a3a8-ee34ff1687fe"
                },
                "onsetDateTime": "2024-02-17T14:24:00-05:00",
                "abatementDateTime": "2024-02-21T16:00:00-05:00",
                "recordedDate": "2024-02-19T09:34:58-05:00",
                "recorder": {
                    "reference": "PractitionerRole/658f7617-e0dd-46f7-a342-8f3b65bc84af"
                },
                "asserter": {
                    "reference": "PractitionerRole/658f7617-e0dd-46f7-a342-8f3b65bc84af"
                }
            },
            "request": {
                "method": "PUT",
                "url": "Condition/072d9e24-f388-4a3f-ab82-e8b7a81e4459"
            }
        },
        {
            "resource": {
                "resourceType": "AllergyIntolerance",
                "id": "e32678f9-b295-4d79-b9b3-8bab463eca3b",
                "category": [
                    "food"
                ],
                "code": {
                    "coding": [
                        {
                            "code": "1269425007",
                            "system": "http://snomed.info/sct",
                            "display": "alergia a gluten"
                        }
                    ],
                    "text": "alergia a gluten"
                },
                "note": [
                    {
                        "text": "Veniam sit nulla amet ut anim commodo aliqua ipsum."
                    }
                ],
                "reaction": [
                    {
                        "manifestation": [
                            {
                                "coding": [
                                    {
                                        "code": "21522001",
                                        "system": "http://snomed.info/sct",
                                        "display": "dolor abdominal"
                                    }
                                ],
                                "text": "dolor abdominal"
                            }
                        ]
                    }
                ],
                "clinicalStatus": {
                    "coding": [
                        {
                            "code": "active",
                            "display": "Active"
                        }
                    ]
                },
                "verificationStatus": {
                    "coding": [
                        {
                            "code": "confirmed",
                            "display": "Confirmed"
                        }
                    ]
                },
                "type": "allergy",
                "criticality": "low",
                "patient": {
                    "reference": "Patient/92a8e277-af20-4854-a3fb-02cbe9fb8d49"
                },
                "encounter": {
                    "reference": "Encounter/47b7e0b5-25cc-43d3-a3a8-ee34ff1687fe"
                },
                "recordedDate": "2024-02-19T09:30:00-05:00",
                "recorder": {
                    "reference": "Practitioner/feb1e63b-d4ed-4b53-9d1f-8d9efa339b0a"
                },
                "asserter": {
                    "reference": "Practitioner/feb1e63b-d4ed-4b53-9d1f-8d9efa339b0a"
                },
                "lastOccurrence": "2024-02-17T14:24:00-05:00"
            },
            "request": {
                "method": "PUT",
                "url": "AllergyIntolerance/e32678f9-b295-4d79-b9b3-8bab463eca3b"
            }
        },
        {
            "resource": {
                "resourceType": "MedicationRequest",
                "id": "988056f3-efb2-4ced-be65-6e1131e435c8",
                "identifier": [
                    {
                        "system": "https://example.co/prescription-orders",
                        "value": "6e1131e435c8"
                    }
                ],
                "category": [
                    {
                        "coding": [
                            {
                                "code": "outpatient",
                                "display": "Outpatient"
                            }
                        ]
                    }
                ],
                "medicationCodeableConcept": {
                    "coding": [
                        {
                            "system": "http://www.whocc.no/atc",
                            "code": "M01AE01",
                            "display": "IBUPROFENO"
                        },
                        {
                            "system": "http://co.fhir.guide/CodeSystem/CUMS",
                            "code": "20207756",
                            "display": "IBUPROFENO 400 MG TABLETA RECUBIERTA"
                        }
                    ]
                },
                "dosageInstruction": [
                    {
                        "route": {
                            "coding": [
                                {
                                    "system": "http://co.fhir.guide/CodeSystem/MipresDosageRoute",
                                    "code": "048",
                                    "display": "ORAL"
                                }
                            ]
                        },
                        "text": "Tomar una cápsula cada seis (6) horas, durante cuatro (4) días"
                    }
                ],
                "dispenseRequest": {
                    "validityPeriod": {
                        "start": "2024-02-19T09:40:00-05:00"
                    },
                    "quantity": {
                        "system": "http://co.fhir.guide/CodeSystem/MipresDispenseUnit",
                        "value": 16,
                        "unit": "CAPSULA",
                        "code": "14"
                    },
                    "numberOfRepeatsAllowed": 1
                },
                "status": "active",
                "intent": "order",
                "priority": "routine",
                "reportedBoolean": true,
                "subject": {
                    "reference": "Patient/92a8e277-af20-4854-a3fb-02cbe9fb8d49"
                },
                "encounter": {
                    "reference": "Encounter/47b7e0b5-25cc-43d3-a3a8-ee34ff1687fe"
                },
                "authoredOn": "2024-02-19T09:40:00-05:00",
                "requester": {
                    "reference": "Practitioner/feb1e63b-d4ed-4b53-9d1f-8d9efa339b0a"
                },
                "recorder": {
                    "reference": "Practitioner/feb1e63b-d4ed-4b53-9d1f-8d9efa339b0a"
                }
            },
            "request": {
                "method": "PUT",
                "url": "MedicationRequest/988056f3-efb2-4ced-be65-6e1131e435c8"
            }
        },
        {
            "resource": {
                "resourceType": "Observation",
                "id": "29bd72af-4d24-4524-b03a-113a7a81cbb3",
                "category": [
                    {
                        "coding": [
                            {
                                "system": "http://terminology.hl7.org/CodeSystem/observation-category",
                                "code": "laboratory",
                                "display": "Laboratory"
                            },
                            {
                                "system": "http://terminology.hl7.org/CodeSystem/v2-0074",
                                "code": "HM",
                                "display": "Hematology"
                            }
                        ]
                    }
                ],
                "code": {
                    "coding": [
                        {
                            "system": "http://loinc.org",
                            "code": "58410-2",
                            "display": "CBC panel - Blood by Automated count"
                        },
                        {
                            "system": "http://co.fhir.guide/CodeSystem/CUPS",
                            "code": "902210",
                            "display": "HEMOGRAMA IV (HEMOGLOBINA HEMATOCRITO RECUENTO DE ERITROCITOS INDICES ERITROCITARIOS LEUCOGRAMA RECUENTO DE PLAQUETAS INDICES PLAQUETARIOS Y MORFOLOGIA ELECTRONICA E HISTOGRAMA) AUTOMATIZADO"
                        }
                    ]
                },
                "performer": [
                    {
                        "reference": "Practitioner/feb1e63b-d4ed-4b53-9d1f-8d9efa339b0a"
                    }
                ],
                "component": [
                    {
                        "valueQuantity": {
                            "value": 6.5,
                            "unit": "10*3/uL"
                        },
                        "interpretation": [
                            {
                                "coding": [
                                    {
                                        "code": "N",
                                        "system": "http://terminology.hl7.org/CodeSystem/v3-ObservationInterpretation",
                                        "display": "Normal"
                                    }
                                ]
                            }
                        ],
                        "referenceRange": [
                            {
                                "text": "4.0 - 10.0"
                            }
                        ],
                        "code": {
                            "coding": [
                                {
                                    "code": "6690-2",
                                    "system": "http://loinc.org",
                                    "display": "Leukocytes [#/volume] in Blood by Automated count"
                                }
                            ]
                        }
                    },
                    {
                        "valueQuantity": {
                            "value": 4.5,
                            "unit": "10*6/uL"
                        },
                        "interpretation": [
                            {
                                "coding": [
                                    {
                                        "code": "N",
                                        "system": "http://terminology.hl7.org/CodeSystem/v3-ObservationInterpretation",
                                        "display": "Normal"
                                    }
                                ]
                            }
                        ],
                        "referenceRange": [
                            {
                                "text": "3.5 - 5.5"
                            }
                        ],
                        "code": {
                            "coding": [
                                {
                                    "code": "789-8",
                                    "system": "http://loinc.org",
                                    "display": "Erythrocytes [#/volume] in Blood by Automated count"
                                }
                            ]
                        }
                    },
                    {
                        "valueQuantity": {
                            "value": 10.7,
                            "unit": "g/dL"
                        },
                        "interpretation": [
                            {
                                "coding": [
                                    {
                                        "code": "L",
                                        "system": "http://terminology.hl7.org/CodeSystem/v3-ObservationInterpretation",
                                        "display": "Low"
                                    }
                                ]
                            }
                        ],
                        "referenceRange": [
                            {
                                "text": "11.0 - 16.0"
                            }
                        ],
                        "code": {
                            "coding": [
                                {
                                    "code": "718-7",
                                    "system": "http://loinc.org",
                                    "display": "Hemoglobin [Mass/volume] in Blood"
                                }
                            ]
                        }
                    },
                    {
                        "valueQuantity": {
                            "value": 60,
                            "unit": "%"
                        },
                        "interpretation": [
                            {
                                "coding": [
                                    {
                                        "code": "H",
                                        "system": "http://terminology.hl7.org/CodeSystem/v3-ObservationInterpretation",
                                        "display": "High"
                                    }
                                ]
                            }
                        ],
                        "referenceRange": [
                            {
                                "text": "37 - 54"
                            }
                        ],
                        "code": {
                            "coding": [
                                {
                                    "code": "4544-3",
                                    "system": "http://loinc.org",
                                    "display": "Hematocrit [Volume Fraction] of Blood by Automated count"
                                }
                            ]
                        }
                    },
                    {
                        "valueQuantity": {
                            "value": 85.5,
                            "unit": "fL"
                        },
                        "interpretation": [
                            {
                                "coding": [
                                    {
                                        "code": "N",
                                        "system": "http://terminology.hl7.org/CodeSystem/v3-ObservationInterpretation",
                                        "display": "Normal"
                                    }
                                ]
                            }
                        ],
                        "referenceRange": [
                            {
                                "text": "80 - 100"
                            }
                        ],
                        "code": {
                            "coding": [
                                {
                                    "code": "787-2",
                                    "system": "http://loinc.org",
                                    "display": "MCV [Entitic volume] by Automated count"
                                }
                            ]
                        }
                    },
                    {
                        "valueQuantity": {
                            "value": 30.4,
                            "unit": "pg"
                        },
                        "interpretation": [
                            {
                                "coding": [
                                    {
                                        "code": "N",
                                        "system": "http://terminology.hl7.org/CodeSystem/v3-ObservationInterpretation",
                                        "display": "Normal"
                                    }
                                ]
                            }
                        ],
                        "referenceRange": [
                            {
                                "text": "27 - 34"
                            }
                        ],
                        "code": {
                            "coding": [
                                {
                                    "code": "785-6",
                                    "system": "http://loinc.org",
                                    "display": "MCH [Entitic mass] by Automated count"
                                }
                            ]
                        }
                    },
                    {
                        "valueQuantity": {
                            "value": 30.3,
                            "unit": "g/dL"
                        },
                        "interpretation": [
                            {
                                "coding": [
                                    {
                                        "code": "L",
                                        "system": "http://terminology.hl7.org/CodeSystem/v3-ObservationInterpretation",
                                        "display": "Low"
                                    }
                                ]
                            }
                        ],
                        "referenceRange": [
                            {
                                "text": "32 - 36"
                            }
                        ],
                        "code": {
                            "coding": [
                                {
                                    "code": "786-4",
                                    "system": "http://loinc.org",
                                    "display": "MCHC [Mass/volume] by Automated count"
                                }
                            ]
                        }
                    },
                    {
                        "valueQuantity": {
                            "value": 110.5,
                            "unit": "10*3/uL"
                        },
                        "interpretation": [
                            {
                                "coding": [
                                    {
                                        "code": "N",
                                        "system": "http://terminology.hl7.org/CodeSystem/v3-ObservationInterpretation",
                                        "display": "Normal"
                                    }
                                ]
                            }
                        ],
                        "referenceRange": [
                            {
                                "text": "100 - 300"
                            }
                        ],
                        "code": {
                            "coding": [
                                {
                                    "code": "777-3",
                                    "system": "http://loinc.org",
                                    "display": "Platelets [#/volume] in Blood by Automated count"
                                }
                            ]
                        }
                    }
                ],
                "status": "final",
                "subject": {
                    "reference": "Patient/92a8e277-af20-4854-a3fb-02cbe9fb8d49"
                },
                "effectiveDateTime": "2024-02-17T14:25:00-05:00",
                "specimen": {
                    "reference": "Specimen/9af75b58-4511-478d-87a7-d879e55f9802"
                }
            },
            "request": {
                "method": "PUT",
                "url": "Observation/29bd72af-4d24-4524-b03a-113a7a81cbb3"
            }
        },
        {
            "resource": {
                "resourceType": "DiagnosticReport",
                "id": "bb82bff9-ad8f-4295-9465-b8d4ab0097fe",
                "identifier": [
                    {
                        "use": "usual",
                        "system": "https://example.org/diagnostic-report-identifiers",
                        "value": "RLB2363636"
                    }
                ],
                "category": [
                    {
                        "coding": [
                            {
                                "code": "LAB",
                                "system": "http://terminology.hl7.org/CodeSystem/v2-0074",
                                "display": "Laboratory"
                            }
                        ]
                    }
                ],
                "code": {
                    "coding": [
                        {
                            "system": "http://loinc.org",
                            "code": "58410-2",
                            "display": "CBC panel - Blood by Automated count"
                        },
                        {
                            "system": "http://co.fhir.guide/CodeSystem/CUPS",
                            "code": "902210",
                            "display": "HEMOGRAMA IV (HEMOGLOBINA HEMATOCRITO RECUENTO DE ERITROCITOS INDICES ERITROCITARIOS LEUCOGRAMA RECUENTO DE PLAQUETAS INDICES PLAQUETARIOS Y MORFOLOGIA ELECTRONICA E HISTOGRAMA) AUTOMATIZADO"
                        }
                    ]
                },
                "effectivePeriod": {
                    "start": "2024-02-17T14:25:00-05:00",
                    "end": "2024-02-17T14:25:00-05:00"
                },
                "performer": [
                    {
                        "reference": "Practitioner/feb1e63b-d4ed-4b53-9d1f-8d9efa339b0a"
                    }
                ],
                "specimen": [
                    {
                        "reference": "Specimen/9af75b58-4511-478d-87a7-d879e55f9802"
                    }
                ],
                "result": [
                    {
                        "reference": "Observation/29bd72af-4d24-4524-b03a-113a7a81cbb3"
                    }
                ],
                "status": "final",
                "subject": {
                    "reference": "Patient/92a8e277-af20-4854-a3fb-02cbe9fb8d49"
                },
                "issued": "2024-02-17T14:25:00-05:00",
                "conclusion": "Ullamco eiusmod sunt elit non commodo est dolor."
            },
            "request": {
                "method": "PUT",
                "url": "DiagnosticReport/bb82bff9-ad8f-4295-9465-b8d4ab0097fe"
            }
        },
        {
            "resource": {
                "resourceType": "FamilyMemberHistory",
                "id": "764efee4-9fbb-4937-a711-94182c542996",
                "meta": {
                    "profile": [
                        "http://co.fhir.guide/StructureDefinition/FamilyMemberHistoryCO"
                    ]
                },
                "relationship": {
                    "text": "Madre"
                },
                "sex": {
                    "text": "Femenino"
                },
                "note": [
                    {
                        "text": "Dolore amet occaecat elit ut minim duis nulla aliqua labore. Culpa qui enim officia excepteur magna aute quis labore mollit. Eu magna officia ullamco sit ea tempor. Nisi sunt ipsum consectetur nostrud deserunt. Voluptate magna culpa adipisicing deserunt ut."
                    }
                ],
                "status": "partial",
                "patient": {
                    "reference": "Patient/92a8e277-af20-4854-a3fb-02cbe9fb8d49"
                },
                "name": "Mercedez Jaramillo",
                "deceasedBoolean": true
            },
            "request": {
                "method": "PUT",
                "url": "FamilyMemberHistory/764efee4-9fbb-4937-a711-94182c542996"
            }
        },
        {
            "resource": {
                "resourceType": "FamilyMemberHistory",
                "id": "bb936d58-aded-4bb0-b9dc-aedeeeb0c756",
                "meta": {
                    "profile": [
                        "http://co.fhir.guide/StructureDefinition/FamilyMemberHistoryCO"
                    ]
                },
                "relationship": {
                    "coding": [
                        {
                            "code": "FTH",
                            "system": "http://co.fhir.guide/CodeSystem/FamilyMember",
                            "display": "father"
                        }
                    ],
                    "text": "Padre"
                },
                "sex": {
                    "coding": [
                        {
                            "code": "male",
                            "system": "http://hl7.org/fhir/administrative-gender",
                            "display": "Male"
                        }
                    ],
                    "text": "Masculino"
                },
                "note": [
                    {
                        "authorReference": {
                            "reference": "Practitioner/feb1e63b-d4ed-4b53-9d1f-8d9efa339b0a"
                        },
                        "time": "2024-06-19T14:03:28-05:00",
                        "text": "Veniam culpa velit ex aute sint aute enim adipisicing ut proident. Irure velit eu aliquip et cillum deserunt laborum irure dolor non do consectetur minim voluptate. Dolor esse enim incididunt consectetur proident laborum dolor tempor veniam sit officia ullamco qui consectetur. Nisi ea cupidatat nulla elit qui pariatur anim elit occaecat dolore ut sunt. Ad nostrud consequat labore consectetur sint incididunt qui."
                    }
                ],
                "condition": [
                    {
                        "onsetAge": {
                            "value": 67,
                            "system": "http://unitsofmeasure.org",
                            "unit": "yr",
                            "code": "a"
                        },
                        "code": {
                            "coding": [
                                {
                                    "code": "Z034",
                                    "system": "http://hl7.org/fhir/sid/icd-10",
                                    "display": "Observacion por sospecha de infarto de miocardio"
                                }
                            ]
                        },
                        "contributedToDeath": false
                    }
                ],
                "status": "partial",
                "patient": {
                    "reference": "Patient/92a8e277-af20-4854-a3fb-02cbe9fb8d49"
                },
                "name": "Alberto Mora",
                "deceasedBoolean": true
            },
            "request": {
                "method": "PUT",
                "url": "FamilyMemberHistory/bb936d58-aded-4bb0-b9dc-aedeeeb0c756"
            }
        },
        {
            "resource": {
                "resourceType": "DocumentReference",
                "id": "d2458dda-1c4b-49cb-b808-f294eb381895",
                "meta": {
                    "profile": [
                        "http://co.fhir.guide/StructureDefinition/DocumentReferenceCO"
                    ]
                },
                "identifier": [
                    {
                        "system": "http://example.org/DocumentReference/system",
                        "value": "d2458dda-1c4b"
                    }
                ],
                "type": {
                    "coding": [
                        {
                            "system": "http://co.fhir.guide/CodeSystem/CODocumentType",
                            "code": "11526-1",
                            "display": "Pathology study"
                        }
                    ]
                },
                "author": [
                    {
                        "reference": "Organization/3565ccc1-95b4-47ef-8cc9-5652dba007e6"
                    }
                ],
                "content": [
                    {
                        "attachment": {
                            "data": ""
                        },
                        "format": {
                            "system": "urn:ietf:bcp:13",
                            "code": "application/pdf",
                            "display": "PDF"
                        }
                    }
                ],
                "context": {
                    "encounter": [
                        {
                            "reference": "Encounter/47b7e0b5-25cc-43d3-a3a8-ee34ff1687fe"
                        }
                    ],
                    "period": {
                        "start": "2024-02-17T22:30:00-05:00",
                        "end": "2024-02-19T09:00:00-05:00"
                    }
                },
                "status": "current",
                "docStatus": "final",
                "subject": {
                    "reference": "Patient/92a8e277-af20-4854-a3fb-02cbe9fb8d49"
                },
                "date": "2024-02-18T14:00:00-05:00",
                "custodian": {
                    "reference": "Organization/3565ccc1-95b4-47ef-8cc9-5652dba007e6"
                },
                "description": "Estudio de patología Nº: 2348798"
            },
            "request": {
                "method": "PUT",
                "url": "DocumentReference/d2458dda-1c4b-49cb-b808-f294eb381895"
            }
        },
        {
            "resource": {
                "resourceType": "Specimen",
                "id": "9af75b58-4511-478d-87a7-d879e55f9802",
                "identifier": [
                    {
                        "system": "http://hospital.example.org/identifiers/collections",
                        "value": "23234352356"
                    }
                ],
                "accessionIdentifier": {
                    "system": "http://lab.example.org/specimens/2011",
                    "value": "X352356"
                },
                "collection": {
                    "quantity": {
                        "value": 6,
                        "unit": "mL"
                    },
                    "bodySite": {
                        "coding": [
                            {
                                "code": "49852007",
                                "system": "http://snomed.info/sct",
                                "display": "Structure of median cubital vein (body structure)"
                            }
                        ],
                        "text": "Right median cubital vein"
                    },
                    "collector": {
                        "reference": "Practitioner/feb1e63b-d4ed-4b53-9d1f-8d9efa339b0a"
                    },
                    "collectedDateTime": "2011-05-30T06:15:00Z"
                },
                "container": [
                    {
                        "identifier": [
                            {
                                "value": "48736-15394-75465"
                            }
                        ],
                        "type": {
                            "text": "Vacutainer"
                        },
                        "capacity": {
                            "value": 10,
                            "unit": "mL"
                        },
                        "specimenQuantity": {
                            "value": 6,
                            "unit": "mL"
                        },
                        "description": "Green Gel tube"
                    }
                ],
                "note": [
                    {
                        "text": "Specimen is grossly lipemic"
                    }
                ],
                "status": "available",
                "type": {
                    "coding": [
                        {
                            "code": "122555007",
                            "system": "http://snomed.info/sct",
                            "display": "Venous blood specimen"
                        }
                    ]
                },
                "subject": {
                    "reference": "Patient/92a8e277-af20-4854-a3fb-02cbe9fb8d49",
                    "display": "Mónica Mora"
                },
                "receivedTime": "2023-09-25T08:30:00-05:00"
            },
            "request": {
                "method": "PUT",
                "url": "Specimen/9af75b58-4511-478d-87a7-d879e55f9802"
            }
        },
        {
            "resource": {
                "resourceType": "Organization",
                "id": "3565ccc1-95b4-47ef-8cc9-5652dba007e6",
                "meta": {
                    "profile": [
                        "http://co.fhir.guide/core/StructureDefinition/CareDeliveryOrganizationCO"
                    ]
                },
                "identifier": [
                    {
                        "type": {
                            "coding": [
                                {
                                    "system": "http://terminology.hl7.org/CodeSystem/v2-0203",
                                    "code": "TAX",
                                    "display": "Tax ID number"
                                },
                                {
                                    "system": "http://co.fhir.guide/terminology/CodeSystem/ColombianOrganizationIdentifiers",
                                    "code": "NIT",
                                    "display": "Número de Identificación Tributaria"
                                }
                            ]
                        },
                        "period": {
                            "start": "1982-07-20"
                        },
                        "id": "TaxIdentifier-0",
                        "use": "official",
                        "value": "9000000-0"
                    },
                    {
                        "type": {
                            "coding": [
                                {
                                    "system": "http://terminology.hl7.org/CodeSystem/v2-0203",
                                    "code": "PRN",
                                    "display": "Provider number"
                                },
                                {
                                    "system": "http://co.fhir.guide/terminology/CodeSystem/ColombianOrganizationIdentifiers",
                                    "code": "CodigoPrestador",
                                    "display": "Código de habilitación de prestador de servicios de salud"
                                }
                            ]
                        },
                        "period": {
                            "start": "1997-07-20"
                        },
                        "id": "HealthcareProviderIdentifier-0",
                        "use": "official",
                        "system": "https://prestadores.minsalud.gov.co/habilitacion/",
                        "value": "1100100011"
                    }
                ],
                "type": [
                    {
                        "coding": [
                            {
                                "system": "http://co.fhir.guide/terminology/CodeSystem/ColombianProviderClass",
                                "code": "IPS",
                                "display": "Institución Prestadora de Servicios de Salud"
                            }
                        ]
                    },
                    {
                        "coding": [
                            {
                                "system": "http://co.fhir.guide/terminology/CodeSystem/ColombianLegalNatureType",
                                "code": "PRIV",
                                "display": "Privada"
                            }
                        ]
                    },
                    {
                        "coding": [
                            {
                                "system": "http://co.fhir.guide/terminology/CodeSystem/ColombianHealthcareLevel",
                                "code": "4",
                                "display": "Nivel IV"
                            }
                        ]
                    }
                ],
                "alias": [
                    "HGC",
                    "HOSPITAL CENTRAL",
                    "HOSPITAL GENERAL"
                ],
                "telecom": [
                    {
                        "id": "TelecomPhone-0",
                        "system": "phone",
                        "value": "+57(000)000-0000"
                    },
                    {
                        "id": "TelecomURL-0",
                        "system": "url",
                        "value": "http://hospital.example.com"
                    }
                ],
                "address": [
                    {
                        "use": "work",
                        "type": "physical",
                        "country": "CO",
                        "text": "Cl. 7 #40 00, Chapinero",
                        "city": "Bogotá D.C.",
                        "_city": {
                            "extension": [
                                {
                                    "url": "http://co.fhir.guide/core/StructureDefinition/ExtensionDivipolaMunicipality",
                                    "valueCoding": {
                                        "code": "11001",
                                        "system": "http://co.fhir.guide/terminology/CodeSystem/DIVIPOLA"
                                    }
                                }
                            ]
                        },
                        "district": "Chapinero",
                        "state": "Bogotá D.C.",
                        "_state": {
                            "extension": [
                                {
                                    "url": "http://co.fhir.guide/core/StructureDefinition/ExtensionDivipolaDepartment",
                                    "valueCoding": {
                                        "code": "11",
                                        "system": "http://co.fhir.guide/terminology/CodeSystem/DIVIPOLA"
                                    }
                                }
                            ]
                        },
                        "postalCode": "11001"
                    }
                ],
                "active": true,
                "name": "HOSPITAL GENERAL CENTRAL"
            },
            "request": {
                "method": "PUT",
                "url": "Organization/3565ccc1-95b4-47ef-8cc9-5652dba007e6"
            }
        },
        {
            "resource": {
                "resourceType": "Practitioner",
                "id": "feb1e63b-d4ed-4b53-9d1f-8d9efa339b0a",
                "meta": {
                    "profile": [
                        "http://co.fhir.guide/core/StructureDefinition/PractitionerCO"
                    ]
                },
                "identifier": [
                    {
                        "type": {
                            "coding": [
                                {
                                    "system": "http://terminology.hl7.org/CodeSystem/v2-0203",
                                    "code": "PN",
                                    "display": "Person number"
                                },
                                {
                                    "system": "http://co.fhir.guide/terminology/CodeSystem/ColombianPersonIdentifiers",
                                    "code": "CC",
                                    "display": "Cédula ciudadanía"
                                }
                            ]
                        },
                        "period": {
                            "start": "1999-11-19"
                        },
                        "id": "NationalPersonIdentifier-0",
                        "use": "official",
                        "value": "25709065"
                    }
                ],
                "name": [
                    {
                        "given": [
                            "Gregorio",
                            "José"
                        ],
                        "prefix": [
                            "Dr"
                        ],
                        "suffix": [
                            "MD"
                        ],
                        "use": "official",
                        "family": "Casas Hernandez",
                        "_family": {
                            "extension": [
                                {
                                    "url": "http://co.fhir.guide/core/StructureDefinition/ExtensionFathersFamilyName",
                                    "valueString": "Casas"
                                },
                                {
                                    "url": "http://co.fhir.guide/core/StructureDefinition/ExtensionMothersFamilyName",
                                    "valueString": "Hernández"
                                }
                            ]
                        }
                    }
                ],
                "telecom": [
                    {
                        "id": "TelecomMobile-0",
                        "system": "phone",
                        "use": "mobile",
                        "value": "+57(333)222-1111"
                    },
                    {
                        "id": "TelecomEmail-0",
                        "system": "email",
                        "value": "gregorio.casas@example.com"
                    }
                ],
                "address": [
                    {
                        "use": "work",
                        "type": "physical",
                        "text": "Cl. 7 #40 00, Chapinero",
                        "city": "Bogotá D.C.",
                        "_city": {
                            "extension": [
                                {
                                    "url": "http://co.fhir.guide/core/StructureDefinition/ExtensionDivipolaMunicipality",
                                    "valueCoding": {
                                        "code": "11001",
                                        "system": "http://co.fhir.guide/terminology/CodeSystem/DIVIPOLA"
                                    }
                                }
                            ]
                        },
                        "district": "Chapinero",
                        "state": "Bogotá D.C.",
                        "_state": {
                            "extension": [
                                {
                                    "url": "http://co.fhir.guide/core/StructureDefinition/ExtensionDivipolaDepartment",
                                    "valueCoding": {
                                        "code": "11",
                                        "system": "http://co.fhir.guide/terminology/CodeSystem/DIVIPOLA"
                                    }
                                }
                            ]
                        },
                        "postalCode": "11001",
                        "country": "CO"
                    }
                ],
                "qualification": [
                    {
                        "identifier": [
                            {
                                "assigner": {
                                    "type": "Organization",
                                    "display": "MinSalud"
                                },
                                "use": "official",
                                "system": "https://web.sispro.gov.co/THS/",
                                "type": {
                                    "coding": [
                                        {
                                            "code": "LN",
                                            "system": "http://terminology.hl7.org/CodeSystem/v2-0203",
                                            "display": "License number"
                                        }
                                    ]
                                },
                                "value": "25709065"
                            }
                        ],
                        "period": {
                            "start": "2007-09-23"
                        },
                        "code": {
                            "coding": [
                                {
                                    "system": "http://co.fhir.guide/terminology/CodeSystem/RETHUSqualification",
                                    "code": "003",
                                    "display": "Medicina"
                                }
                            ]
                        }
                    },
                    {
                        "identifier": [
                            {
                                "assigner": {
                                    "type": "Organization",
                                    "display": "MinSalud"
                                },
                                "use": "official",
                                "system": "https://web.sispro.gov.co/THS/",
                                "type": {
                                    "coding": [
                                        {
                                            "code": "LN",
                                            "system": "http://terminology.hl7.org/CodeSystem/v2-0203",
                                            "display": "License number"
                                        }
                                    ]
                                },
                                "value": "25709065"
                            }
                        ],
                        "period": {
                            "start": "2013-02-14"
                        },
                        "code": {
                            "coding": [
                                {
                                    "system": "http://co.fhir.guide/terminology/CodeSystem/RETHUSqualification",
                                    "code": "M1304",
                                    "display": "Enfermedades infecciosas"
                                }
                            ]
                        }
                    }
                ],
                "active": true,
                "gender": "male",
                "birthDate": "1982-11-19"
            },
            "request": {
                "method": "PUT",
                "url": "Practitioner/feb1e63b-d4ed-4b53-9d1f-8d9efa339b0a"
            }
        },
        {
            "resource": {
                "resourceType": "PractitionerRole",
                "id": "658f7617-e0dd-46f7-a342-8f3b65bc84af",
                "meta": {
                    "profile": [
                        "http://co.fhir.guide/core/StructureDefinition/PractitionerRoleCO"
                    ]
                },
                "identifier": [
                    {
                        "type": {
                            "coding": [
                                {
                                    "system": "http://terminology.hl7.org/CodeSystem/v2-0203",
                                    "code": "PN",
                                    "display": "Person number"
                                },
                                {
                                    "system": "http://co.fhir.guide/terminology/CodeSystem/ColombianPersonIdentifiers",
                                    "code": "CC",
                                    "display": "Cédula ciudadanía"
                                }
                            ]
                        },
                        "period": {
                            "start": "1999-11-19"
                        },
                        "id": "NationalPersonIdentifier-0",
                        "use": "official",
                        "value": "25709065"
                    },
                    {
                        "type": {
                            "coding": [
                                {
                                    "system": "http://terminology.hl7.org/CodeSystem/v2-0203",
                                    "code": "TAX",
                                    "display": "Tax ID number"
                                },
                                {
                                    "system": "http://co.fhir.guide/terminology/CodeSystem/ColombianPersonIdentifiers",
                                    "code": "RUT",
                                    "display": "Registro Único Tributario"
                                }
                            ]
                        },
                        "period": {
                            "start": "2007-09-25"
                        },
                        "id": "TaxIdentifier-0",
                        "use": "official",
                        "value": "25709065-0"
                    },
                    {
                        "assigner": {
                            "type": "Organization",
                            "reference": "Organization/3565ccc1-95b4-47ef-8cc9-5652dba007e6",
                            "display": "Hospital General Cental"
                        },
                        "id": "EmployeeIdentifier-0",
                        "use": "usual",
                        "type": {
                            "coding": [
                                {
                                    "code": "EI",
                                    "system": "http://terminology.hl7.org/CodeSystem/v2-0203",
                                    "display": "Employee number"
                                }
                            ]
                        },
                        "system": "http://example.com/id-empleado",
                        "value": "25709065"
                    }
                ],
                "period": {
                    "start": "2007-09-25"
                },
                "code": [
                    {
                        "coding": [
                            {
                                "code": "041",
                                "system": "http://co.fhir.guide/terminology/CodeSystem/REPShealthcarePositions",
                                "display": "Médico Especialista - Infectología"
                            }
                        ]
                    }
                ],
                "specialty": [
                    {
                        "coding": [
                            {
                                "code": "M1304",
                                "system": "http://co.fhir.guide/terminology/CodeSystem/RETHUSqualification",
                                "display": "Enfermedades infecciosas"
                            }
                        ]
                    }
                ],
                "location": [
                    {
                        "reference": "Location/29c2e207-7c1e-4581-8394-c126875aa896"
                    }
                ],
                "healthcareService": [
                    {
                        "reference": "HealthcareService/2d2592ef-7a5e-43ca-8512-06fd9acfd01a"
                    }
                ],
                "telecom": [
                    {
                        "id": "TelecomMobile-0",
                        "system": "phone",
                        "use": "mobile",
                        "value": "+57(333)444-5555"
                    },
                    {
                        "id": "TelecomEmail-0",
                        "system": "email",
                        "value": "gregorio.casas@hospital.example.com"
                    }
                ],
                "active": true,
                "practitioner": {
                    "reference": "Practitioner/feb1e63b-d4ed-4b53-9d1f-8d9efa339b0a"
                },
                "organization": {
                    "reference": "Organization/3565ccc1-95b4-47ef-8cc9-5652dba007e6"
                }
            },
            "request": {
                "method": "PUT",
                "url": "PractitionerRole/658f7617-e0dd-46f7-a342-8f3b65bc84af"
            }
        },
        {
            "resource": {
                "resourceType": "Location",
                "id": "29c2e207-7c1e-4581-8394-c126875aa896",
                "meta": {
                    "profile": [
                        "http://co.fhir.guide/core/StructureDefinition/CareDeliveryLocationCO"
                    ]
                },
                "identifier": [
                    {
                        "use": "official",
                        "system": "https://prestadores.minsalud.gov.co/habilitacion/",
                        "value": "1100100011"
                    }
                ],
                "alias": [
                    "HGC1"
                ],
                "type": [
                    {
                        "coding": [
                            {
                                "code": "HOSP",
                                "system": "http://terminology.hl7.org/CodeSystem/v3-RoleCode",
                                "display": "Hospital"
                            }
                        ]
                    }
                ],
                "telecom": [
                    {
                        "id": "TelecomPhone-0",
                        "system": "phone",
                        "value": "+57(000)000-0000"
                    },
                    {
                        "id": "TelecomURL-0",
                        "system": "url",
                        "value": "http://hospital.example.com"
                    }
                ],
                "address": {
                    "use": "work",
                    "type": "physical",
                    "country": "CO",
                    "text": "Cl. 7 #40 00, Chapinero",
                    "city": "Bogotá D.C.",
                    "_city": {
                        "extension": [
                            {
                                "url": "http://co.fhir.guide/core/StructureDefinition/ExtensionDivipolaMunicipality",
                                "valueCoding": {
                                    "code": "11001",
                                    "system": "http://co.fhir.guide/terminology/CodeSystem/DIVIPOLA"
                                }
                            }
                        ]
                    },
                    "district": "Chapinero",
                    "state": "Bogotá D.C.",
                    "_state": {
                        "extension": [
                            {
                                "url": "http://co.fhir.guide/core/StructureDefinition/ExtensionDivipolaDepartment",
                                "valueCoding": {
                                    "code": "11",
                                    "system": "http://co.fhir.guide/terminology/CodeSystem/DIVIPOLA"
                                }
                            }
                        ]
                    },
                    "postalCode": "11001"
                },
                "hoursOfOperation": [
                    {
                        "daysOfWeek": [
                            "mon",
                            "tue",
                            "wed",
                            "thu",
                            "fri",
                            "sat",
                            "sun"
                        ],
                        "allDay": true
                    }
                ],
                "status": "active",
                "name": "SEDE PRINCIPAL",
                "description": "Sede principal del Hospital General Central",
                "mode": "instance",
                "managingOrganization": {
                    "reference": "Organization/3565ccc1-95b4-47ef-8cc9-5652dba007e6"
                }
            },
            "request": {
                "method": "PUT",
                "url": "Location/29c2e207-7c1e-4581-8394-c126875aa896"
            }
        },
        {
            "resource": {
                "resourceType": "HealthcareService",
                "id": "2d2592ef-7a5e-43ca-8512-06fd9acfd01a",
                "meta": {
                    "profile": [
                        "http://co.fhir.guide/core/StructureDefinition/HealthcareServiceCO"
                    ]
                },
                "identifier": [
                    {
                        "use": "official",
                        "system": "https://prestadores.minsalud.gov.co/habilitacion/",
                        "value": "DHSS1111111"
                    }
                ],
                "category": [
                    {
                        "coding": [
                            {
                                "code": "73588009",
                                "system": "http://co.fhir.guide/terminology/CodeSystem/REPShealthcareServiceCategory",
                                "display": "Apoyo Diagnóstico y Complementación Terapéutica"
                            }
                        ]
                    }
                ],
                "type": [
                    {
                        "coding": [
                            {
                                "code": "323",
                                "system": "http://co.fhir.guide/terminology/CodeSystem/REPShealthcareServices",
                                "display": "INFECTOLOGÍA"
                            }
                        ]
                    }
                ],
                "location": [
                    {
                        "reference": "Location/29c2e207-7c1e-4581-8394-c126875aa896"
                    }
                ],
                "availableTime": [
                    {
                        "daysOfWeek": [
                            "mon",
                            "tue",
                            "wed",
                            "thu",
                            "fri",
                            "sat"
                        ],
                        "availableStartTime": "07:00:00",
                        "availableEndTime": "19:00:00"
                    }
                ],
                "active": true,
                "providedBy": {
                    "reference": "Organization/3565ccc1-95b4-47ef-8cc9-5652dba007e6"
                },
                "name": "Servicio de Infectología"
            },
            "request": {
                "method": "PUT",
                "url": "HealthcareService/2d2592ef-7a5e-43ca-8512-06fd9acfd01a"
            }
        }
    ]
}